Sensor Model:   DT-670-CU-1.4L
Serial Number:  D6121829
Interpolation Method:   Straight Line
SetPoint Limit: 325.0      (Kelvin)
Data Format:    2      (Volts/Kelvin)
Number of Breakpoints:   36

No.   Units      Temperature (K)

  1  0.14703       475.0
  2  0.21870       445.0
  3  0.32600       400.0
  4  0.49026       330.0
  5  0.50605       325.0
  6  0.59755       285.0
  7  0.66522       255.0
  8  0.73161       225.0
  9  0.78573       200.0
 10  0.83871       175.0
 11  0.88003       155.0
 12  0.92035       135.0
 13  0.94964       120.0
 14  0.97813       105.0
 15  1.00558        90.0
 16  1.03194        75.0
 17  1.05723        60.0
 18  1.08320        44.0
 19  1.09589        36.0
 20  1.10456        31.0
 21  1.11056        28.0
 22  1.11301        27.0
 23  1.11586        26.0
 24  1.11971        25.0
 25  1.12643        24.0
 26  1.14199        23.0
 27  1.16408        22.0
 28  1.18319        21.0
 29  1.27347        15.5
 30  1.33167        12.5
 31  1.39265        10.0
 32  1.46976         7.5
 33  1.57684         4.6
 34  1.62614         2.9
 35  1.65126         1.7
 36  1.65464         1.4
